Folder: fds/Verification/Pyrolysis

File: pine_wood_TGA.csv
rate,2.5 KPM,5 KPM,10 KPM,2.5 KPM,5 KPM,10 KPM,5 KPM,5 KPM
O2,0.0 %,0.0 %,0.0 %,20.5 %,20.5 %,20.5 %,8.2 %,4.3 %
Temp,MLR 2,MLR 3,MLR 4,MLR 13,MLR 14,MLR 15,MLR 16,MLR 17
200.0,1.68e-05,1.92e-05,3.77e-05,1.99e-05,2.43e-05,2.8e-05,2.01e-05,8.62e-06
204.0,1.68e-05,2.042e-05,3.938e-05,2.12954e-05,2.63285e-05,2.8025e-05,1.8784e-05,8.30584e-06
208.0,1.68e-05,2.34357e-05,4.19e-05,2.47873e-05,3.19478e-05,3.12333e-05,2.06988e-05,5.83443e-06
212.0,1.7825e-05,2.6729e-05,4.19e-05,2.73e-05,3.4e-05,3.75667e-05,2.70074e-05,5.54949e-06
216.0,2.09e-05,2.55757e-05,4.33e-05,2.94862e-05,3.80124e-05,4.26e-05,2.62272e-05,2.89257e-06
220.0,2.195e-05,3.15698e-05,4.61e-05,3.59429e-05,4.41566e-05,5.01333e-05,4.08216e-05,4.03159e-06
224.0,2.762e-05,4.1151e-05,5.282e-05,4.18772e-05,4.8776e-05,5.92667e-05,4.47198e-05,7.50974e-06
228.0,3.77e-05,4.4e-05,5.76125e-05,5.05015e-05,5.99076e-05,6.53e-05,4.90193e-05,1.25431e-05
232.0,4.05e-05,4.77084e-05,6.17625e-05,5.93866e-05,6.91373e-05,7.44333e-05,5.9541e-05,1.9699e-05
236.0,4.47e-05,5.42415e-05,6.91e-05,6.62009e-05,7.98226e-05,9.25e-05,6.86988e-05,3.18535e-05
240.0,5.114e-05,5.69524e-05,7.792e-05,7.86037e-05,9.83348e-05,0.000111,8.10345e-05,4.1931e-05
244.0,6.118e-05,6.25941e-05,8.8e-05,9.38454e-05,0.000116267,0.000138,9.60358e-05,5.63709e-05
248.0,7.33e-05,7.32383e-05,0.000104889,0.000110973,0.000141467,0.000165,0.000113559,6.97492e-05
252.0,8.17e-05,8.40407e-05,0.000121778,0.000131795,0.00016359,0.000183,0.000127994,8.29678e-05
256.0,9.46e-05,9.5553e-05,0.000149,0.00015111,0.000193012,0.000214,0.000148163,0.000101358
260.0,0.000109,0.000107571,0.000179714,0.000172607,0.000229683,0.000256,0.000176822,0.000119164
264.0,0.000126,0.000119389,0.000210571,0.000195694,0.000264448,0.000304,0.000206927,0.00014373
268.0,0.000138,0.000134644,0.000239143,0.000222168,0.000307182,0.000352,0.000233961,0.000169325
272.0,0.000167333,0.000156748,0.000265429,0.000250531,0.000345108,0.000397333,0.000263173,0.000199919
276.0,0.000189,0.000180508,0.000305,0.000278979,0.000390283,0.000453,0.000299711,0.000229387
280.0,0.0002095,0.000204712,0.000356,0.000315699,0.000438852,0.000514667,0.000334468,0.000264493
284.0,0.00023,0.00023284,0.0004085,0.000358723,0.000486283,0.000584,0.000373371,0.000302725
288.0,0.00026,0.000259777,0.000461,0.000425872,0.000533522,0.000656,0.000415852,0.000335379
292.0,0.0002745,0.000286355,0.000523667,0.000536551,0.000585101,0.000735,0.000460215,0.00037287
296.0,0.000293,0.000321195,0.000593333,0.000650918,0.000653032,0.000821667,0.000518848,0.000410969
300.0,0.000312667,0.000350528,0.00067,0.000712511,0.000747326,0.000907,0.000576612,0.000450418
304.0,0.000327,0.000384906,0.000748,0.00066233,0.000908352,0.00100267,0.000651002,0.000497032
308.0,0.000347667,0.000415098,0.000825,0.000512767,0.00112529,0.00110333,0.000755721,0.00054495
312.0,0.000370333,0.000448331,0.000927333,0.000344198,0.00136118,0.00121,0.000905978,0.000595548
316.0,0.00039,0.000483652,0.00101,0.000218316,0.00140413,0.00134333,0.00112194,0.00065439
320.0,0.0004125,0.000508695,0.00110333,0.00016137,0.00123561,0.00155667,0.00130526,0.000738772
324.0,0.000447,0.000523532,0.00119,0.000130597,0.000918918,0.00189,0.00134454,0.00085078
328.0,0.000486,0.000540178,0.00126,0.000114625,0.000588156,0.00233,0.00115679,0.000994816
332.0,0.000524,0.000566016,0.001315,0.000103203,0.000372594,0.00267,0.00080588,0.00112356
336.0,0.000574,0.000601295,0.00137,9.51494e-05,0.000274422,0.00265,0.000508814,0.00115673
340.0,0.000627333,0.000649231,0.00146,9.1484e-05,0.0002310026,0.00221,0.000318164,0.00106181
344.0,0.000635333,0.000714215,0.001525,8.6687e-05,0.000205184,0.00157667,0.000231801,0.000854063
348.0,0.000578,0.000789255,0.0016,8.37461e-05,0.000188787,0.000895333,0.000192545,0.000636768
352.0,0.0004545,0.000860411,0.00171,8.20869e-05,0.000178042,0.000614,0.000173056,0.000418982
356.0,0.00031,0.000917551,0.00186,8.14e-05,0.00016954,0.000464,0.000167459,0.000286146
360.0,0.000169333,0.000923644,0.00203333,8.39e-05,0.000160486,0.000387667,0.000158221,0.000212713
364.0,8.61e-05,0.00084804,0.00229,8.39e-05,0.000159356,0.000346333,0.000155385,0.000180657
368.0,5.45e-05,0.000700988,0.00248,8.47771e-05,0.000158055,0.000325,0.000152487,0.000161116
372.0,4.89e-05,0.000484988,0.00261,8.53312e-05,0.000158244,0.000318,0.000155365,0.000141574
376.0,4.61e-05,0.000297115,0.00247667,8.95572e-05,0.000160486,0.000306,0.000156716,0.000135263
380.0,4.05e-05,0.000167876,0.00205,9.61234e-05,0.000160486,0.000299,0.000158249,0.000137496
384.0,3.77e-05,8.89489e-05,0.00152667,0.000101531,0.000163287,0.000288333,0.000158556,0.000142761
388.0,3.77e-05,6.90524e-05,0.000892,0.000107361,0.00016535,0.000285,0.000161134,0.00014276
392.0,3.56e-05,6.6e-05,0.000488,0.000116475,0.000167359,0.000285,0.00016114,0.000152403
396.0,3.77e-05,6.05e-05,0.000247,0.000126608,0.000174023,0.00029,0.000161787,0.0001554
400.0,3.35e-05,5.81873e-05,0.000183,0.000135848,0.000184733,0.000293333,0.000164023,0.000155406
404.0,3.49e-05,5.77e-05,0.000156333,0.000149381,0.000193305,0.000308,0.00016645,0.000155785
408.0,3.77e-05,5.50308e-05,0.000142,0.000164487,0.000205314,0.000313,0.000179372,0.00015829
412.0,3.63e-05,5.22e-05,0.000142,0.000174353,0.000215362,0.000321667,0.000187101,0.000159503
416.0,3.63e-05,5.14544e-05,0.0001396,0.000185738,0.000230843,0.00034,0.000199759,0.000162668
420.0,3.35e-05,4.95e-05,0.0001348,0.000185931,0.000254081,0.000352474,0.000210594,0.000166229
424.0,3.56e-05,4.67e-05,0.0001292,0.000177938,0.000274958,0.000370366,0.000217601,0.000171679
428.0,3.35e-05,4.63519e-05,0.000126,0.00016256,0.000297279,0.000392273,0.000230726,0.000179488
432.0,2.65e-05,4.20763e-05,0.0001228,0.00012948,0.000317591,0.000411865,0.000245002,0.00019213
436.0,2.51e-05,4.2852e-05,0.000122,9.49615e-05,0.000329382,0.000435357,0.000264314,0.000204773
440.0,2.51e-05,3.85329e-05,0.000122,6.1695e-05,0.000328742,0.00046509,0.00028893,0.000217866
444.0,2.3e-05,4.12e-05,0.00012,3.52075e-05,0.000308039,0.000507302,0.000310409,0.000231103
448.0,2.51e-05,,,1.57773e-05,0.000260763,0.000552179,0.000332144,0.000242374
452.0,,,,6.32463e-06,0.000193459,0.000597757,0.00034903,0.000253725
456.0,,,,3.61786e-06,0.000130641,0.000647121,0.00034694,0.000269144
460.0,,,,2.80165e-06,8.29069e-05,0.000680299,0.000320954,0.00028042
464.0,,,,4.14079e-06,4.47442e-05,0.00068718,0.000272281,0.000292627
468.0,,,,4.93968e-06,2.66352e-05,0.000630915,0.000199587,0.000307484
472.0,,,,1.52284e-06,1.44665e-05,0.000513533,0.000126632,0.000307126
476.0,,,,,5.70531e-06,0.00035771,7.01153e-05,0.000289916
480.0,,,,,,0.000221017,3.69646e-05,0.000258105
484.0,,,,,,0.000123022,2.01063e-05,0.000217313
488.0,,,,,,6.79101e-05,1.20872e-05,0.000172546
492.0,,,,,,5.87105e-05,1.13346e-05,0.000127081
496.0,,,,,,5.98499e-05,7.22893e-06,8.90331e-05
500.0,,,,,,6.35e-05,,5.63045e-05
504.0,,,,,,6.35e-05,,3.60909e-05
508.0,,,,,,6.35e-05,,2.42834e-05
512.0,,,,,,6.35e-05,,1.47595e-05
516.0,,,,,,6.35e-05,,8.44982e-06
520.0,,,,,,6.35e-05,,5.18965e-06
524.0,,,,,,6.35e-05,,3.34e-06
528.0,,,,,,6.35e-05,,3.34646e-06
532.0,,,,,,6.35e-05,,
536.0,,,,,,6.35e-05,,
540.0,,,,,,6.35e-05,,
544.0,,,,,,6.35e-05,,
548.0,,,,,,6.35e-05,,